Username,ID,ExperimentName,Session,Trial,Date,TimeDif,Condition.Number,Stimuli.File,Order.File,Condition.Description,Condition.Notes,Stimuli.Cue,Stimuli.Answer,Stimuli.Shuffle,Stimuli.Stimuli.Notes,Stimuli.Value,Procedure.Item,Procedure.Trial.Type,Procedure.Max.Time,Procedure.Min.Time,Procedure.Text,Procedure.Procedure.Notes,Procedure.Shuffle,Response.RT,Response.Response,Response.Accuracy,Response.RTfirst,Response.RTlast,Response.strictAcc,Response.lenientAcc,Response.focus,Response.JOL,Response.Focus
zf42q81@########.edu,nqqj1atunx,Affordance Norms_Butler,1,11,2023-02-17T20:08:10+00:00,23.25175095,21,updated stim.csv,Version21.csv,Version 21,List 21,frog,NA,604,5.125,1058,605,BOI,-,-,Please name all of the ways you could use this object. Keep in mind that one object can have many uses. Separate your responses with a comma.,NA,y,23081,NA,NA,4396,19010,NA,NA,NA,"eat, pet, jump, swim",1
zf42q81@########.edu,nqqj1atunx,Affordance Norms_Butler,1,12,2023-02-17T20:08:25+00:00,15.06227994,21,updated stim.csv,Version21.csv,Version 21,List 21,placenta,NA,629,4.28,1984,630,BOI,-,-,Please name all of the ways you could use this object. Keep in mind that one object can have many uses. Separate your responses with a comma.,NA,y,14887,NA,NA,3946,13369,NA,NA,NA,"nourish, eat, safety",1
zf42q81@########.edu,nqqj1atunx,Affordance Norms_Butler,1,13,2023-02-17T20:08:44+00:00,18.84223604,21,updated stim.csv,Version21.csv,Version 21,List 21,guesthouse,NA,627,4.913043478,1189,628,BOI,-,-,Please name all of the ways you could use this object. Keep in mind that one object can have many uses. Separate your responses with a comma.,NA,y,18667,NA,NA,3546,17331,NA,NA,NA,"sleep, lay, eat, rest",1
zf42q81@########.edu,nqqj1atunx,Affordance Norms_Butler,1,14,2023-02-17T20:08:56+00:00,12.29783392,21,updated stim.csv,Version21.csv,Version 21,List 21,ammo,NA,603,5.32,34,604,BOI,-,-,Please name all of the ways you could use this object. Keep in mind that one object can have many uses. Separate your responses with a comma.,NA,y,12123,NA,NA,1759,8814,NA,NA,NA,"shoot, reload, aim",1
zf42q81@########.edu,nqqj1atunx,Affordance Norms_Butler,1,15,2023-02-17T20:09:10+00:00,13.47936416,21,updated stim.csv,Version21.csv,Version 21,List 21,washroom,NA,625,5.037037037,2901,626,BOI,-,-,Please name all of the ways you could use this object. Keep in mind that one object can have many uses. Separate your responses with a comma.,NA,y,13283,NA,NA,2956,12564,NA,NA,NA,"wash, shower, clean ",1
zf42q81@########.edu,nqqj1atunx,Affordance Norms_Butler,1,16,2023-02-17T20:09:19+00:00,9.019176006,21,updated stim.csv,Version21.csv,Version 21,List 21,snowshoe,NA,605,5.541666667,2436,606,BOI,-,-,Please name all of the ways you could use this object. Keep in mind that one object can have many uses. Separate your responses with a comma.,NA,y,8843,NA,NA,1894,5861,NA,NA,NA,"walk, step, wear",1
zf42q81@########.edu,nqqj1atunx,Affordance Norms_Butler,1,17,2023-02-17T20:09:30+00:00,11.24981403,21,updated stim.csv,Version21.csv,Version 21,List 21,whore,NA,608,4.782608696,2933,609,BOI,-,-,Please name all of the ways you could use this object. Keep in mind that one object can have many uses. Separate your responses with a comma.,NA,y,11070,NA,NA,-1,-1,NA,NA,NA,,1
zf42q81@########.edu,nqqj1atunx,Affordance Norms_Butler,1,18,2023-02-17T20:09:42+00:00,12.11190295,21,updated stim.csv,Version21.csv,Version 21,List 21,checkerboard,NA,609,5.391304348,500,610,BOI,-,-,Please name all of the ways you could use this object. Keep in mind that one object can have many uses. Separate your responses with a comma.,NA,y,11929,NA,NA,4480,9982,NA,NA,NA,"checkers, play",1
zf42q81@########.edu,nqqj1atunx,Affordance Norms_Butler,1,19,2023-02-17T20:10:12+00:00,29.41345,21,updated stim.csv,Version21.csv,Version 21,List 21,organ,NA,611,5.185185185,1820,612,BOI,-,-,Please name all of the ways you could use this object. Keep in mind that one object can have many uses. Separate your responses with a comma.,NA,y,29232,NA,NA,4940,28067,NA,NA,NA,"play, music, health",1
zf42q81@########.edu,nqqj1atunx,Affordance Norms_Butler,1,20,2023-02-17T20:10:22+00:00,10.28235793,21,updated stim.csv,Version21.csv,Version 21,List 21,bugle,NA,622,4.541666667,348,623,BOI,-,-,Please name all of the ways you could use this object. Keep in mind that one object can have many uses. Separate your responses with a comma.,NA,y,10092,NA,NA,2262,9061,NA,NA,NA,"eat, pet",1
zf42q81@########.edu,nqqj1atunx,Affordance Norms_Butler,1,21,2023-02-17T20:10:31+00:00,9.2667799,21,updated stim.csv,Version21.csv,Version 21,List 21,spinach,NA,626,4.96,2474,627,BOI,-,-,Please name all of the ways you could use this object. Keep in mind that one object can have many uses. Separate your responses with a comma.,NA,y,9089,NA,NA,1114,7961,NA,NA,NA,"eat, farm, plant",1
zf42q81@########.edu,nqqj1atunx,Affordance Norms_Butler,1,22,2023-02-17T20:10:38+00:00,6.593408108,21,updated stim.csv,Version21.csv,Version 21,List 21,cutlery,NA,607,5.913043478,738,608,BOI,-,-,Please name all of the ways you could use this object. Keep in mind that one object can have many uses. Separate your responses with a comma.,NA,y,6422,NA,NA,1737,3321,NA,NA,NA,"cut, use",1
zf42q81@########.edu,nqqj1atunx,Affordance Norms_Butler,1,23,2023-02-17T20:10:55+00:00,17.05553889,21,updated stim.csv,Version21.csv,Version 21,List 21,toiletry,NA,602,5.222222222,2720,603,BOI,-,-,Please name all of the ways you could use this object. Keep in mind that one object can have many uses. Separate your responses with a comma.,NA,y,16874,NA,NA,9320,14688,NA,NA,NA,"wash, clean",1
zf42q81@########.edu,nqqj1atunx,Affordance Norms_Butler,1,24,2023-02-17T20:11:04+00:00,9.48383522,21,updated stim.csv,Version21.csv,Version 21,List 21,steroids,NA,623,4.52,2532,624,BOI,-,-,Please name all of the ways you could use this object. Keep in mind that one object can have many uses. Separate your responses with a comma.,NA,y,9306,NA,NA,2341,8323,NA,NA,NA,"consume, inject",1
zf42q81@########.edu,nqqj1atunx,Affordance Norms_Butler,1,25,2023-02-17T20:11:14+00:00,9.344372988,21,updated stim.csv,Version21.csv,Version 21,List 21,bell,NA,614,5.76,196,615,BOI,-,-,Please name all of the ways you could use this object. Keep in mind that one object can have many uses. Separate your responses with a comma.,NA,y,9161,NA,NA,2410,7929,NA,NA,NA,"ring, ding, music",1
zf42q81@########.edu,nqqj1atunx,Affordance Norms_Butler,1,26,2023-02-17T20:11:26+00:00,12.71185088,21,updated stim.csv,Version21.csv,Version 21,List 21,sunflower,NA,615,5.333333333,2587,616,BOI,-,-,Please name all of the ways you could use this object. Keep in mind that one object can have many uses. Separate your responses with a comma.,NA,y,12531,NA,NA,1993,11328,NA,NA,NA,"plant, grow, consume, dye",1
zf42q81@########.edu,nqqj1atunx,Affordance Norms_Butler,1,27,2023-02-17T20:11:34+00:00,7.725534916,21,updated stim.csv,Version21.csv,Version 21,List 21,cadillac,NA,621,5.12,395,622,BOI,-,-,Please name all of the ways you could use this object. Keep in mind that one object can have many uses. Separate your responses with a comma.,NA,y,7544,NA,NA,1704,5815,NA,NA,NA,"drive, ride, race",1
zf42q81@########.edu,nqqj1atunx,Affordance Norms_Butler,1,28,2023-02-17T20:11:39+00:00,4.611254215,21,updated stim.csv,Version21.csv,Version 21,List 21,muffler,NA,616,4.75,1712,617,BOI,-,-,Please name all of the ways you could use this object. Keep in mind that one object can have many uses. Separate your responses with a comma.,NA,y,4428,NA,NA,2388,3277,NA,NA,NA,noise,1
zf42q81@########.edu,nqqj1atunx,Affordance Norms_Butler,1,29,2023-02-17T20:11:52+00:00,13.05850983,21,updated stim.csv,Version21.csv,Version 21,List 21,splint,NA,618,4.958333333,2477,619,BOI,-,-,Please name all of the ways you could use this object. Keep in mind that one object can have many uses. Separate your responses with a comma.,NA,y,12887,NA,NA,8189,11172,NA,NA,NA,"brace, heal",1
zf42q81@########.edu,nqqj1atunx,Affordance Norms_Butler,1,30,2023-02-17T20:12:04+00:00,12.198596,21,updated stim.csv,Version21.csv,Version 21,List 21,gumdrop,NA,628,5.875,1197,629,BOI,-,-,Please name all of the ways you could use this object. Keep in mind that one object can have many uses. Separate your responses with a comma.,NA,y,12019,NA,NA,4045,10365,NA,NA,NA,"eat, chew",1
zf42q81@########.edu,nqqj1atunx,Affordance Norms_Butler,1,31,2023-02-17T20:12:16+00:00,11.98928714,21,updated stim.csv,Version21.csv,Version 21,List 21,schoolhouse,NA,612,5.291666667,2272,613,BOI,-,-,Please name all of the ways you could use this object. Keep in mind that one object can have many uses. Separate your responses with a comma.,NA,y,11812,NA,NA,2839,9942,NA,NA,NA,"learn, play, study, practice",1
zf42q81@########.edu,nqqj1atunx,Affordance Norms_Butler,1,32,2023-02-17T20:12:23+00:00,7.064158916,21,updated stim.csv,Version21.csv,Version 21,List 21,iguana,NA,617,5.166666667,1350,618,BOI,-,-,Please name all of the ways you could use this object. Keep in mind that one object can have many uses. Separate your responses with a comma.,NA,y,6889,NA,NA,1714,4729,NA,NA,NA,"pet, eat",1
zf42q81@########.edu,nqqj1atunx,Affordance Norms_Butler,1,33,2023-02-17T20:12:37+00:00,13.54703307,21,updated stim.csv,Version21.csv,Version 21,List 21,can,NA,619,4.88,408,620,BOI,-,-,Please name all of the ways you could use this object. Keep in mind that one object can have many uses. Separate your responses with a comma.,NA,y,13369,NA,NA,4922,9210,NA,NA,NA,"drink, eat",1
zf42q81@########.edu,nqqj1atunx,Affordance Norms_Butler,1,34,2023-02-17T20:12:52+00:00,15.02855897,21,updated stim.csv,Version21.csv,Version 21,List 21,seaweed,NA,610,4.458333333,2304,611,BOI,-,-,Please name all of the ways you could use this object. Keep in mind that one object can have many uses. Separate your responses with a comma.,NA,y,14838,NA,NA,3616,9768,NA,NA,NA,eat,1
zf42q81@########.edu,nqqj1atunx,Affordance Norms_Butler,1,35,2023-02-17T20:12:58+00:00,6.693626881,21,updated stim.csv,Version21.csv,Version 21,List 21,quill,NA,613,4.565217391,2115,614,BOI,-,-,Please name all of the ways you could use this object. Keep in mind that one object can have many uses. Separate your responses with a comma.,NA,y,6517,NA,NA,1939,5218,NA,NA,NA,"write, draw",1
zf42q81@########.edu,nqqj1atunx,Affordance Norms_Butler,1,36,2023-02-17T20:13:08+00:00,9.674823999,21,updated stim.csv,Version21.csv,Version 21,List 21,lizard,NA,606,4.925925926,1529,607,BOI,-,-,Please name all of the ways you could use this object. Keep in mind that one object can have many uses. Separate your responses with a comma.,NA,y,9497,NA,NA,2539,6083,NA,NA,NA,"eat, pet, play",1
zf42q81@########.edu,nqqj1atunx,Affordance Norms_Butler,1,37,2023-02-17T20:13:15+00:00,6.874315977,21,updated stim.csv,Version21.csv,Version 21,List 21,ring,NA,624,6.130434783,2170,625,BOI,-,-,Please name all of the ways you could use this object. Keep in mind that one object can have many uses. Separate your responses with a comma.,NA,y,6698,NA,NA,3483,4146,NA,NA,NA,wear,1
zf42q81@########.edu,nqqj1atunx,Affordance Norms_Butler,1,38,2023-02-17T20:13:23+00:00,8.24634099,21,updated stim.csv,Version21.csv,Version 21,List 21,piano,NA,630,6.166666667,1947,631,BOI,-,-,Please name all of the ways you could use this object. Keep in mind that one object can have many uses. Separate your responses with a comma.,NA,y,8070,NA,NA,3008,7070,NA,NA,NA,"play, music, practice",1
zf42q81@########.edu,nqqj1atunx,Affordance Norms_Butler,1,39,2023-02-17T20:13:32+00:00,9.164911032,21,updated stim.csv,Version21.csv,Version 21,List 21,condominium,NA,620,4.678571429,623,621,BOI,-,-,Please name all of the ways you could use this object. Keep in mind that one object can have many uses. Separate your responses with a comma.,NA,y,8983,NA,NA,2858,6770,NA,NA,NA,"sleep, live, rest",1
zf42q81@########.edu,nqqj1atunx,Affordance Norms_Butler,1,40,2023-02-17T20:13:49+00:00,16.83180118,21,updated stim.csv,Version21.csv,Version 21,List 21,gangster,NA,601,4.36,1072,602,BOI,-,-,Please name all of the ways you could use this object. Keep in mind that one object can have many uses. Separate your responses with a comma.,NA,y,16654,NA,NA,9778,14458,NA,NA,NA,steal,1
z5399@########.edu,bs7elp8zye,Affordance Norms_Butler,1,11,2023-02-02T20:08:00+00:00,6.153107882,18,updated stim.csv,Version18.csv,Version 18,List 18,upholstery,NA,526,5.461538462,2827,527,BOI,-,-,Please name all of the ways you could use this object. Keep in mind that one object can have many uses. Separate your responses with a comma.,NA,y,5988,NA,NA,-1,-1,NA,NA,NA,,1
z5399@########.edu,bs7elp8zye,Affordance Norms_Butler,1,12,2023-02-02T20:08:15+00:00,15.19358897,18,updated stim.csv,Version18.csv,Version 18,List 18,adapter,NA,532,4.583333333,13,533,BOI,-,-,Please name all of the ways you could use this object. Keep in mind that one object can have many uses. Separate your responses with a comma.,NA,y,15018,NA,NA,4574,13245,NA,NA,NA,"plugging in, charging",1
z5399@########.edu,bs7elp8zye,Affordance Norms_Butler,1,13,2023-02-02T20:08:30+00:00,14.44693708,18,updated stim.csv,Version18.csv,Version 18,List 18,basin,NA,538,4.818181818,161,539,BOI,-,-,Please name all of the ways you could use this object. Keep in mind that one object can have many uses. Separate your responses with a comma.,NA,y,14267,NA,NA,2184,12863,NA,NA,NA,holding liquid,1
z5399@########.edu,bs7elp8zye,Affordance Norms_Butler,1,14,2023-02-02T20:08:41+00:00,11.74575591,18,updated stim.csv,Version18.csv,Version 18,List 18,coupon,NA,540,4.821428571,667,541,BOI,-,-,Please name all of the ways you could use this object. Keep in mind that one object can have many uses. Separate your responses with a comma.,NA,y,11570,NA,NA,2741,8091,NA,NA,NA,"buying, discounting",1
z5399@########.edu,bs7elp8zye,Affordance Norms_Butler,1,15,2023-02-02T20:08:47+00:00,5.144576073,18,updated stim.csv,Version18.csv,Version 18,List 18,capacitor,NA,527,4.375,423,528,BOI,-,-,Please name all of the ways you could use this object. Keep in mind that one object can have many uses. Separate your responses with a comma.,NA,y,4980,NA,NA,-1,-1,NA,NA,NA,,1
z5399@########.edu,bs7elp8zye,Affordance Norms_Butler,1,16,2023-02-02T20:09:01+00:00,14.85166907,18,updated stim.csv,Version18.csv,Version 18,List 18,breastplate,NA,519,5.136363636,314,520,BOI,-,-,Please name all of the ways you could use this object. Keep in mind that one object can have many uses. Separate your responses with a comma.,NA,y,14673,NA,NA,2333,8139,NA,NA,NA,"protecting, supporting",1
z5399@########.edu,bs7elp8zye,Affordance Norms_Butler,1,17,2023-02-02T20:09:11+00:00,9.295204878,18,updated stim.csv,Version18.csv,Version 18,List 18,semen,NA,523,5.269230769,2310,524,BOI,-,-,Please name all of the ways you could use this object. Keep in mind that one object can have many uses. Separate your responses with a comma.,NA,y,9105,NA,NA,2866,5880,NA,NA,NA,producing life,1
z5399@########.edu,bs7elp8zye,Affordance Norms_Butler,1,18,2023-02-02T20:09:32+00:00,21.72666001,18,updated stim.csv,Version18.csv,Version 18,List 18,chimpanzee,NA,512,4.260869565,525,513,BOI,-,-,Please name all of the ways you could use this object. Keep in mind that one object can have many uses. Separate your responses with a comma.,NA,y,21544,NA,NA,3699,20650,NA,NA,NA,"attacking, climbing, running, crawling, throwing, jumping ",1
z5399@########.edu,bs7elp8zye,Affordance Norms_Butler,1,19,2023-02-02T20:09:43+00:00,10.73931599,18,updated stim.csv,Version18.csv,Version 18,List 18,girlfriend,NA,536,5.730769231,1109,537,BOI,-,-,Please name all of the ways you could use this object. Keep in mind that one object can have many uses. Separate your responses with a comma.,NA,y,10568,NA,NA,2243,7738,NA,NA,NA,"loving, kissing, ",1
z5399@########.edu,bs7elp8zye,Affordance Norms_Butler,1,20,2023-02-02T20:09:53+00:00,10.15429807,18,updated stim.csv,Version18.csv,Version 18,List 18,guard,NA,515,5,1184,516,BOI,-,-,Please name all of the ways you could use this object. Keep in mind that one object can have many uses. Separate your responses with a comma.,NA,y,9979,NA,NA,3111,5125,NA,NA,NA,protecting,1
z5399@########.edu,bs7elp8zye,Affordance Norms_Butler,1,21,2023-02-02T20:10:06+00:00,12.35111094,18,updated stim.csv,Version18.csv,Version 18,List 18,orphan,NA,514,5.259259259,1824,515,BOI,-,-,Please name all of the ways you could use this object. Keep in mind that one object can have many uses. Separate your responses with a comma.,NA,y,12172,NA,NA,-1,-1,NA,NA,NA,,1
z5399@########.edu,bs7elp8zye,Affordance Norms_Butler,1,22,2023-02-02T20:10:22+00:00,16.29728699,18,updated stim.csv,Version18.csv,Version 18,List 18,dishwasher,NA,522,5.592592593,803,523,BOI,-,-,Please name all of the ways you could use this object. Keep in mind that one object can have many uses. Separate your responses with a comma.,NA,y,16117,NA,NA,1792,14343,NA,NA,NA,"washing, cleaning, drying, cleansing",1
z5399@########.edu,bs7elp8zye,Affordance Norms_Butler,1,23,2023-02-02T20:10:44+00:00,22.14453101,18,updated stim.csv,Version18.csv,Version 18,List 18,espresso,NA,533,5.24,921,534,BOI,-,-,Please name all of the ways you could use this object. Keep in mind that one object can have many uses. Separate your responses with a comma.,NA,y,21966,NA,NA,4904,20399,NA,NA,NA,"caffeinating, hydrating, sustaining",1
z5399@########.edu,bs7elp8zye,Affordance Norms_Butler,1,24,2023-02-02T20:11:05+00:00,20.92170501,18,updated stim.csv,Version18.csv,Version 18,List 18,tenderloin,NA,539,4.962962963,2663,540,BOI,-,-,Please name all of the ways you could use this object. Keep in mind that one object can have many uses. Separate your responses with a comma.,NA,y,20745,NA,NA,2356,13554,NA,NA,NA,"sustaining, eating",1
z5399@########.edu,bs7elp8zye,Affordance Norms_Butler,1,25,2023-02-02T20:11:09+00:00,4.373059034,18,updated stim.csv,Version18.csv,Version 18,List 18,croquet,NA,517,4.84,701,518,BOI,-,-,Please name all of the ways you could use this object. Keep in mind that one object can have many uses. Separate your responses with a comma.,NA,y,4191,NA,NA,-1,-1,NA,NA,NA,,1
z5399@########.edu,bs7elp8zye,Affordance Norms_Butler,1,26,2023-02-02T20:11:22+00:00,12.50507092,18,updated stim.csv,Version18.csv,Version 18,List 18,appetizer,NA,513,6.12,60,514,BOI,-,-,Please name all of the ways you could use this object. Keep in mind that one object can have many uses. Separate your responses with a comma.,NA,y,12328,NA,NA,1538,10744,NA,NA,NA,"eating, starting, sustaining",1
z5399@########.edu,bs7elp8zye,Affordance Norms_Butler,1,27,2023-02-02T20:11:41+00:00,19.57553411,18,updated stim.csv,Version18.csv,Version 18,List 18,inventor,NA,529,4.391304348,1366,530,BOI,-,-,Please name all of the ways you could use this object. Keep in mind that one object can have many uses. Separate your responses with a comma.,NA,y,19400,NA,NA,1811,18266,NA,NA,NA,"inventing, designing, constructing, patenting ",1
z5399@########.edu,bs7elp8zye,Affordance Norms_Butler,1,28,2023-02-02T20:11:48+00:00,6.819472075,18,updated stim.csv,Version18.csv,Version 18,List 18,boy,NA,521,4.962962963,296,522,BOI,-,-,Please name all of the ways you could use this object. Keep in mind that one object can have many uses. Separate your responses with a comma.,NA,y,6650,NA,NA,-1,-1,NA,NA,NA,,1
z5399@########.edu,bs7elp8zye,Affordance Norms_Butler,1,29,2023-02-02T20:12:21+00:00,32.28135896,18,updated stim.csv,Version18.csv,Version 18,List 18,Elevator,NA,537,5.486522911,901,538,BOI,-,-,Please name all of the ways you could use this object. Keep in mind that one object can have many uses. Separate your responses with a comma.,NA,y,32098,NA,NA,3433,31575,NA,NA,NA,"elevating, descending, transporting ",1
z5399@########.edu,bs7elp8zye,Affordance Norms_Butler,1,30,2023-02-02T20:12:34+00:00,13.69029593,18,updated stim.csv,Version18.csv,Version 18,List 18,skewer,NA,525,4.5,2396,526,BOI,-,-,Please name all of the ways you could use this object. Keep in mind that one object can have many uses. Separate your responses with a comma.,NA,y,13516,NA,NA,2614,8094,NA,NA,NA,"poking, holding food",1
z5399@########.edu,bs7elp8zye,Affordance Norms_Butler,1,31,2023-02-02T20:12:58+00:00,24.26528311,18,updated stim.csv,Version18.csv,Version 18,List 18,cosmetician,NA,520,4.8,655,521,BOI,-,-,Please name all of the ways you could use this object. Keep in mind that one object can have many uses. Separate your responses with a comma.,NA,y,24088,NA,NA,3419,22745,NA,NA,NA,"fixing bodily issues, enhancing",1
z5399@########.edu,bs7elp8zye,Affordance Norms_Butler,1,32,2023-02-02T20:13:13+00:00,14.03211594,18,updated stim.csv,Version18.csv,Version 18,List 18,bellboy,NA,535,4.8,197,536,BOI,-,-,Please name all of the ways you could use this object. Keep in mind that one object can have many uses. Separate your responses with a comma.,NA,y,13855,NA,NA,2321,11096,NA,NA,NA,"assisting, carrying luggage",1
z5399@########.edu,bs7elp8zye,Affordance Norms_Butler,1,33,2023-02-02T20:13:37+00:00,24.10535502,18,updated stim.csv,Version18.csv,Version 18,List 18,packaging,NA,524,5.038461538,1838,525,BOI,-,-,Please name all of the ways you could use this object. Keep in mind that one object can have many uses. Separate your responses with a comma.,NA,y,23908,NA,NA,2991,23686,NA,NA,NA,"holding objects, securing, transporting ",1
z5399@########.edu,bs7elp8zye,Affordance Norms_Butler,1,34,2023-02-02T20:13:43+00:00,6.558893919,18,updated stim.csv,Version18.csv,Version 18,List 18,armor,NA,530,5.333333333,74,531,BOI,-,-,Please name all of the ways you could use this object. Keep in mind that one object can have many uses. Separate your responses with a comma.,NA,y,6379,NA,NA,1253,2996,NA,NA,NA,protecting,1
z5399@########.edu,bs7elp8zye,Affordance Norms_Butler,1,35,2023-02-02T20:14:08+00:00,25.01486707,18,updated stim.csv,Version18.csv,Version 18,List 18,croissant,NA,518,6,699,519,BOI,-,-,Please name all of the ways you could use this object. Keep in mind that one object can have many uses. Separate your responses with a comma.,NA,y,24840,NA,NA,2203,19042,NA,NA,NA,"eating, sustaining",1
z5399@########.edu,bs7elp8zye,Affordance Norms_Butler,1,36,2023-02-02T20:14:27+00:00,19.11164308,18,updated stim.csv,Version18.csv,Version 18,List 18,leopard,NA,534,5.260869565,1492,535,BOI,-,-,Please name all of the ways you could use this object. Keep in mind that one object can have many uses. Separate your responses with a comma.,NA,y,18938,NA,NA,2782,17573,NA,NA,NA,"running, jumping, attacking, hunting ",1
z5399@########.edu,bs7elp8zye,Affordance Norms_Butler,1,37,2023-02-02T20:14:48+00:00,20.66733479,18,updated stim.csv,Version18.csv,Version 18,List 18,eyeball,NA,516,5.555555556,930,517,BOI,-,-,Please name all of the ways you could use this object. Keep in mind that one object can have many uses. Separate your responses with a comma.,NA,y,20488,NA,NA,1859,19826,NA,NA,NA,"seeing, moving, tracking, twitching",1
z5399@########.edu,bs7elp8zye,Affordance Norms_Butler,1,38,2023-02-02T20:15:05+00:00,17.46912813,18,updated stim.csv,Version18.csv,Version 18,List 18,sweater,NA,531,6.592592593,2604,532,BOI,-,-,Please name all of the ways you could use this object. Keep in mind that one object can have many uses. Separate your responses with a comma.,NA,y,17296,NA,NA,2859,12809,NA,NA,NA,"warming, wearing",1
z5399@########.edu,bs7elp8zye,Affordance Norms_Butler,1,39,2023-02-02T20:15:19+00:00,13.54662991,18,updated stim.csv,Version18.csv,Version 18,List 18,thread,NA,528,4.76,2684,529,BOI,-,-,Please name all of the ways you could use this object. Keep in mind that one object can have many uses. Separate your responses with a comma.,NA,y,13367,NA,NA,2116,10274,NA,NA,NA,"sewing, constructing, designing",1
z5399@########.edu,bs7elp8zye,Affordance Norms_Butler,1,40,2023-02-02T20:15:39+00:00,20.37337518,18,updated stim.csv,Version18.csv,Version 18,List 18,programmer,NA,511,4.695652174,2071,512,BOI,-,-,Please name all of the ways you could use this object. Keep in mind that one object can have many uses. Separate your responses with a comma.,NA,y,20196,NA,NA,3128,19792,NA,NA,NA,"designing, problem solving, engineering ",1
gl72e4@########.edu,zuagog4sqt,Affordance Norms_Butler,1,11,2023-02-10T19:41:43+00:00,54.81910086,19,updated stim.csv,Version19.csv,Version 19,List 19,silkworm,NA,570,5.208333333,2382,571,BOI,-,-,Please name all of the ways you could use this object. Keep in mind that one object can have many uses. Separate your responses with a comma.,NA,y,54651,NA,NA,3793,48519,NA,NA,NA,"eat, interact with, carry, throw, squash, feed to animal, pet, ",1
gl72e4@########.edu,zuagog4sqt,Affordance Norms_Butler,1,12,2023-02-10T19:42:45+00:00,61.49896002,19,updated stim.csv,Version19.csv,Version 19,List 19,godparent,NA,551,5.260869565,1129,552,BOI,-,-,Please name all of the ways you could use this object. Keep in mind that one object can have many uses. Separate your responses with a comma.,NA,y,61254,NA,NA,12980,54323,NA,NA,NA,"talk to, punch, hug, kiss, kill, ",1
gl72e4@########.edu,zuagog4sqt,Affordance Norms_Butler,1,13,2023-02-10T19:43:35+00:00,50.35745811,19,updated stim.csv,Version19.csv,Version 19,List 19,raft,NA,564,5.36,2125,565,BOI,-,-,Please name all of the ways you could use this object. Keep in mind that one object can have many uses. Separate your responses with a comma.,NA,y,50153,NA,NA,4492,49034,NA,NA,NA,"rafting, bed to sleep on, rug, door mat, wall decor",1
gl72e4@########.edu,zuagog4sqt,Affordance Norms_Butler,1,14,2023-02-10T19:44:03+00:00,27.34339905,19,updated stim.csv,Version19.csv,Version 19,List 19,goose,NA,553,5.260869565,1138,554,BOI,-,-,Please name all of the ways you could use this object. Keep in mind that one object can have many uses. Separate your responses with a comma.,NA,y,27134,NA,NA,5854,19797,NA,NA,NA,"cook, eat, pet, chase, kill, ",1
gl72e4@########.edu,zuagog4sqt,Affordance Norms_Butler,1,15,2023-02-10T19:44:36+00:00,33.8229959,19,updated stim.csv,Version19.csv,Version 19,List 19,barley,NA,546,4.541666667,149,547,BOI,-,-,Please name all of the ways you could use this object. Keep in mind that one object can have many uses. Separate your responses with a comma.,NA,y,33643,NA,NA,7921,32495,NA,NA,NA,"eat, smush, cook/bake, blend, cut, feed",1
gl72e4@########.edu,zuagog4sqt,Affordance Norms_Butler,1,16,2023-02-10T19:45:11+00:00,34.84720206,19,updated stim.csv,Version19.csv,Version 19,List 19,tear,NA,556,4.44,2650,557,BOI,-,-,Please name all of the ways you could use this object. Keep in mind that one object can have many uses. Separate your responses with a comma.,NA,y,34671,NA,NA,4320,13687,NA,NA,NA,"collect in jar, wipe away, ",1
gl72e4@########.edu,zuagog4sqt,Affordance Norms_Butler,1,17,2023-02-10T19:45:37+00:00,26.12438202,19,updated stim.csv,Version19.csv,Version 19,List 19,bagpipes,NA,550,5,124,551,BOI,-,-,Please name all of the ways you could use this object. Keep in mind that one object can have many uses. Separate your responses with a comma.,NA,y,25847,NA,NA,1672,20175,NA,NA,NA,"play, wall decor, wear, use as weapon, ",1
gl72e4@########.edu,zuagog4sqt,Affordance Norms_Butler,1,18,2023-02-10T19:46:09+00:00,31.52004886,19,updated stim.csv,Version19.csv,Version 19,List 19,couch,NA,544,6.260869565,661,545,BOI,-,-,Please name all of the ways you could use this object. Keep in mind that one object can have many uses. Separate your responses with a comma.,NA,y,31344,NA,NA,3685,9677,NA,NA,NA,"sleep, sit, for socialization, ",1
gl72e4@########.edu,zuagog4sqt,Affordance Norms_Butler,1,19,2023-02-10T19:46:12+00:00,3.475782156,19,updated stim.csv,Version19.csv,Version 19,List 19,plaster,NA,542,4.4,1993,543,BOI,-,-,Please name all of the ways you could use this object. Keep in mind that one object can have many uses. Separate your responses with a comma.,NA,y,3378,NA,NA,-1,-1,NA,NA,NA,,1
gl72e4@########.edu,zuagog4sqt,Affordance Norms_Butler,1,20,2023-02-10T19:46:36+00:00,23.85314393,19,updated stim.csv,Version19.csv,Version 19,List 19,toe,NA,565,5.954545455,2715,566,BOI,-,-,Please name all of the ways you could use this object. Keep in mind that one object can have many uses. Separate your responses with a comma.,NA,y,23679,NA,NA,13364,16019,NA,NA,NA,"walk, run, ",1
gl72e4@########.edu,zuagog4sqt,Affordance Norms_Butler,1,21,2023-02-10T19:46:45+00:00,9.215970039,19,updated stim.csv,Version19.csv,Version 19,List 19,vulva,NA,561,5.16,2876,562,BOI,-,-,Please name all of the ways you could use this object. Keep in mind that one object can have many uses. Separate your responses with a comma.,NA,y,9044,NA,NA,-1,-1,NA,NA,NA,,1
gl72e4@########.edu,zuagog4sqt,Affordance Norms_Butler,1,22,2023-02-10T19:47:06+00:00,20.49293089,19,updated stim.csv,Version19.csv,Version 19,List 19,lantern,NA,558,5.653846154,1463,559,BOI,-,-,Please name all of the ways you could use this object. Keep in mind that one object can have many uses. Separate your responses with a comma.,NA,y,20275,NA,NA,3038,19188,NA,NA,NA,"light, decor, break, guide,",1
gl72e4@########.edu,zuagog4sqt,Affordance Norms_Butler,1,23,2023-02-10T19:47:20+00:00,14.4875381,19,updated stim.csv,Version19.csv,Version 19,List 19,steak,NA,554,5.75,2515,555,BOI,-,-,Please name all of the ways you could use this object. Keep in mind that one object can have many uses. Separate your responses with a comma.,NA,y,14316,NA,NA,1346,8849,NA,NA,NA,"eat, feed, cook, bake, ",1
gl72e4@########.edu,zuagog4sqt,Affordance Norms_Butler,1,24,2023-02-10T19:47:25+00:00,4.788472891,19,updated stim.csv,Version19.csv,Version 19,List 19,enamel,NA,552,4.652173913,905,553,BOI,-,-,Please name all of the ways you could use this object. Keep in mind that one object can have many uses. Separate your responses with a comma.,NA,y,4613,NA,NA,-1,-1,NA,NA,NA,,1
gl72e4@########.edu,zuagog4sqt,Affordance Norms_Butler,1,25,2023-02-10T19:47:42+00:00,16.57438612,19,updated stim.csv,Version19.csv,Version 19,List 19,letterbox,NA,559,4.56,1496,560,BOI,-,-,Please name all of the ways you could use this object. Keep in mind that one object can have many uses. Separate your responses with a comma.,NA,y,16398,NA,NA,5465,15792,NA,NA,NA,"send, receive, contact, collect",1
gl72e4@########.edu,zuagog4sqt,Affordance Norms_Butler,1,26,2023-02-10T19:48:01+00:00,19.02636194,19,updated stim.csv,Version19.csv,Version 19,List 19,goggles,NA,543,6.125,1131,544,BOI,-,-,Please name all of the ways you could use this object. Keep in mind that one object can have many uses. Separate your responses with a comma.,NA,y,18848,NA,NA,1402,18674,NA,NA,NA,"see, protection, fashion, confidence",1
gl72e4@########.edu,zuagog4sqt,Affordance Norms_Butler,1,27,2023-02-10T19:48:39+00:00,38.43902707,19,updated stim.csv,Version19.csv,Version 19,List 19,lubrication,NA,549,4.333333333,1555,550,BOI,-,-,Please name all of the ways you could use this object. Keep in mind that one object can have many uses. Separate your responses with a comma.,NA,y,38254,NA,NA,6819,38049,NA,NA,NA,"safety, sex, to feel comfortable, running, cleaning",1
gl72e4@########.edu,zuagog4sqt,Affordance Norms_Butler,1,28,2023-02-10T19:48:58+00:00,19.15939403,19,updated stim.csv,Version19.csv,Version 19,List 19,saltwater,NA,545,5.192307692,2229,546,BOI,-,-,Please name all of the ways you could use this object. Keep in mind that one object can have many uses. Separate your responses with a comma.,NA,y,18983,NA,NA,6138,18720,NA,NA,NA,"fish tank, pond, drink, clean",1
gl72e4@########.edu,zuagog4sqt,Affordance Norms_Butler,1,29,2023-02-10T19:49:16+00:00,17.61482096,19,updated stim.csv,Version19.csv,Version 19,List 19,woodcutter,NA,560,4.44,2960,561,BOI,-,-,Please name all of the ways you could use this object. Keep in mind that one object can have many uses. Separate your responses with a comma.,NA,y,17434,NA,NA,5620,15931,NA,NA,NA,"making toy, craft, weapon",1
gl72e4@########.edu,zuagog4sqt,Affordance Norms_Butler,1,30,2023-02-10T19:49:25+00:00,9.006010056,19,updated stim.csv,Version19.csv,Version 19,List 19,switchblade,NA,557,5.869565217,2609,558,BOI,-,-,Please name all of the ways you could use this object. Keep in mind that one object can have many uses. Separate your responses with a comma.,NA,y,8831,NA,NA,1971,8066,NA,NA,NA,"kill, cut, destroy, threaten",1
gl72e4@########.edu,zuagog4sqt,Affordance Norms_Butler,1,31,2023-02-10T19:49:40+00:00,14.92231703,19,updated stim.csv,Version19.csv,Version 19,List 19,tray,NA,547,5.166666667,2768,548,BOI,-,-,Please name all of the ways you could use this object. Keep in mind that one object can have many uses. Separate your responses with a comma.,NA,y,14746,NA,NA,2100,13435,NA,NA,NA,"carry, transport, move, eat, ",1
gl72e4@########.edu,zuagog4sqt,Affordance Norms_Butler,1,32,2023-02-10T19:49:43+00:00,2.540780783,19,updated stim.csv,Version19.csv,Version 19,List 19,kerchief,NA,541,5.666666667,1406,542,BOI,-,-,Please name all of the ways you could use this object. Keep in mind that one object can have many uses. Separate your responses with a comma.,NA,y,2442,NA,NA,-1,-1,NA,NA,NA,,1
gl72e4@########.edu,zuagog4sqt,Affordance Norms_Butler,1,33,2023-02-10T19:50:01+00:00,18.93477607,19,updated stim.csv,Version19.csv,Version 19,List 19,cage,NA,562,5.291666667,398,563,BOI,-,-,Please name all of the ways you could use this object. Keep in mind that one object can have many uses. Separate your responses with a comma.,NA,y,18759,NA,NA,4162,13449,NA,NA,NA,"transport, examine, hold, ",1
gl72e4@########.edu,zuagog4sqt,Affordance Norms_Butler,1,34,2023-02-10T19:50:17+00:00,15.04681897,19,updated stim.csv,Version19.csv,Version 19,List 19,treadmill,NA,568,6,2769,569,BOI,-,-,Please name all of the ways you could use this object. Keep in mind that one object can have many uses. Separate your responses with a comma.,NA,y,14867,NA,NA,1452,14685,NA,NA,NA,"run, walk, challenge, room decor",1
gl72e4@########.edu,zuagog4sqt,Affordance Norms_Butler,1,35,2023-02-10T19:50:28+00:00,11.69499612,19,updated stim.csv,Version19.csv,Version 19,List 19,kitchen,NA,566,5.625,1425,567,BOI,-,-,Please name all of the ways you could use this object. Keep in mind that one object can have many uses. Separate your responses with a comma.,NA,y,11518,NA,NA,3464,7535,NA,NA,NA,"cook, clean, party, ",1
gl72e4@########.edu,zuagog4sqt,Affordance Norms_Butler,1,36,2023-02-10T19:50:51+00:00,23.05343103,19,updated stim.csv,Version19.csv,Version 19,List 19,yardstick,NA,569,5.956521739,2990,570,BOI,-,-,Please name all of the ways you could use this object. Keep in mind that one object can have many uses. Separate your responses with a comma.,NA,y,22875,NA,NA,4821,22277,NA,NA,NA,"measure, design, build,",1
gl72e4@########.edu,zuagog4sqt,Affordance Norms_Butler,1,37,2023-02-10T19:50:55+00:00,4.06195879,19,updated stim.csv,Version19.csv,Version 19,List 19,derriere,NA,548,5.5,778,549,BOI,-,-,Please name all of the ways you could use this object. Keep in mind that one object can have many uses. Separate your responses with a comma.,NA,y,3964,NA,NA,-1,-1,NA,NA,NA,,1
gl72e4@########.edu,zuagog4sqt,Affordance Norms_Butler,1,38,2023-02-10T19:51:15+00:00,19.96413803,19,updated stim.csv,Version19.csv,Version 19,List 19,splinter,NA,563,4.652173913,2478,564,BOI,-,-,Please name all of the ways you could use this object. Keep in mind that one object can have many uses. Separate your responses with a comma.,NA,y,19793,NA,NA,6804,19483,NA,NA,NA,"puncture, weapon, protect",1
gl72e4@########.edu,zuagog4sqt,Affordance Norms_Butler,1,39,2023-02-10T19:51:30+00:00,14.30285597,19,updated stim.csv,Version19.csv,Version 19,List 19,backpack,NA,555,5.72,116,556,BOI,-,-,Please name all of the ways you could use this object. Keep in mind that one object can have many uses. Separate your responses with a comma.,NA,y,14126,NA,NA,2235,13426,NA,NA,NA,"fashion, transportation, schoolwork, container",1
gl72e4@########.edu,zuagog4sqt,Affordance Norms_Butler,1,40,2023-02-10T19:51:46+00:00,15.91518307,19,updated stim.csv,Version19.csv,Version 19,List 19,cookie,NA,567,6.5,633,568,BOI,-,-,Please name all of the ways you could use this object. Keep in mind that one object can have many uses. Separate your responses with a comma.,NA,y,15724,NA,NA,1372,15202,NA,NA,NA,"eat, gift, share, throw away",1
k4g7611o9on@########.edu,w8u5w1agly,Affordance Norms_Butler,1,11,2023-02-13T21:04:05+00:00,23.03514385,20,updated stim.csv,Version20.csv,Version 20,List 20,oilcloth,NA,600,5.125,1803,601,BOI,-,-,Please name all of the ways you could use this object. Keep in mind that one object can have many uses. Separate your responses with a comma.,NA,y,22857,NA,NA,2899,16073,NA,NA,NA,"wipe, clean, use, wash, tidy",1
k4g7611o9on@########.edu,w8u5w1agly,Affordance Norms_Butler,1,12,2023-02-13T21:04:18+00:00,13.07745719,20,updated stim.csv,Version20.csv,Version 20,List 20,skittle,NA,577,5,2401,578,BOI,-,-,Please name all of the ways you could use this object. Keep in mind that one object can have many uses. Separate your responses with a comma.,NA,y,12896,NA,NA,1942,9701,NA,NA,NA,"eat, give, throw, play, ingest",1
k4g7611o9on@########.edu,w8u5w1agly,Affordance Norms_Butler,1,13,2023-02-13T21:04:30+00:00,11.10850382,20,updated stim.csv,Version20.csv,Version 20,List 20,hashish,NA,584,4.909090909,1257,585,BOI,-,-,Please name all of the ways you could use this object. Keep in mind that one object can have many uses. Separate your responses with a comma.,NA,y,10936,NA,NA,-1,-1,NA,NA,NA,,1
k4g7611o9on@########.edu,w8u5w1agly,Affordance Norms_Butler,1,14,2023-02-13T21:04:33+00:00,3.100241184,20,updated stim.csv,Version20.csv,Version 20,List 20,smock,NA,594,5.08,2421,595,BOI,-,-,Please name all of the ways you could use this object. Keep in mind that one object can have many uses. Separate your responses with a comma.,NA,y,2987,NA,NA,-1,-1,NA,NA,NA,,1
k4g7611o9on@########.edu,w8u5w1agly,Affordance Norms_Butler,1,15,2023-02-13T21:04:52+00:00,19.02031493,20,updated stim.csv,Version20.csv,Version 20,List 20,tambourine,NA,579,5.916666667,2628,580,BOI,-,-,Please name all of the ways you could use this object. Keep in mind that one object can have many uses. Separate your responses with a comma.,NA,y,18847,NA,NA,1533,15429,NA,NA,NA,"play, hit, use, give, smack",1
k4g7611o9on@########.edu,w8u5w1agly,Affordance Norms_Butler,1,16,2023-02-13T21:05:12+00:00,19.7886591,20,updated stim.csv,Version20.csv,Version 20,List 20,jam,NA,573,5.173913043,1372,574,BOI,-,-,Please name all of the ways you could use this object. Keep in mind that one object can have many uses. Separate your responses with a comma.,NA,y,19610,NA,NA,1603,18490,NA,NA,NA,"eat, play, spread, give, make, eat",1
k4g7611o9on@########.edu,w8u5w1agly,Affordance Norms_Butler,1,17,2023-02-13T21:05:27+00:00,14.99818087,20,updated stim.csv,Version20.csv,Version 20,List 20,antennae,NA,587,4.538461538,47,588,BOI,-,-,Please name all of the ways you could use this object. Keep in mind that one object can have many uses. Separate your responses with a comma.,NA,y,14818,NA,NA,2792,13710,NA,NA,NA,"fix, move, relocate, adjust, point",1
k4g7611o9on@########.edu,w8u5w1agly,Affordance Norms_Butler,1,18,2023-02-13T21:05:50+00:00,23.31830502,20,updated stim.csv,Version20.csv,Version 20,List 20,seedling,NA,582,5.083333333,2309,583,BOI,-,-,Please name all of the ways you could use this object. Keep in mind that one object can have many uses. Separate your responses with a comma.,NA,y,23143,NA,NA,2058,22066,NA,NA,NA,"plant, water, cover, spread, take care of",1
k4g7611o9on@########.edu,w8u5w1agly,Affordance Norms_Butler,1,19,2023-02-13T21:06:08+00:00,18.04488206,20,updated stim.csv,Version20.csv,Version 20,List 20,instructor,NA,580,4.583333333,1360,581,BOI,-,-,Please name all of the ways you could use this object. Keep in mind that one object can have many uses. Separate your responses with a comma.,NA,y,17871,NA,NA,2143,15605,NA,NA,NA,"use, ask, learn, help, assess",1
k4g7611o9on@########.edu,w8u5w1agly,Affordance Norms_Butler,1,20,2023-02-13T21:06:11+00:00,2.790904999,20,updated stim.csv,Version20.csv,Version 20,List 20,obstetrician,NA,598,5.04,1798,599,BOI,-,-,Please name all of the ways you could use this object. Keep in mind that one object can have many uses. Separate your responses with a comma.,NA,y,2693,NA,NA,-1,-1,NA,NA,NA,,1
k4g7611o9on@########.edu,w8u5w1agly,Affordance Norms_Butler,1,21,2023-02-13T21:06:36+00:00,25.76783085,20,updated stim.csv,Version20.csv,Version 20,List 20,stepladder,NA,599,6.130434783,2527,600,BOI,-,-,Please name all of the ways you could use this object. Keep in mind that one object can have many uses. Separate your responses with a comma.,NA,y,25321,NA,NA,1684,24036,NA,NA,NA,"step, climb, jump, paint, reach, decorate",1
k4g7611o9on@########.edu,w8u5w1agly,Affordance Norms_Butler,1,22,2023-02-13T21:06:57+00:00,20.80121613,20,updated stim.csv,Version20.csv,Version 20,List 20,firewood,NA,593,5.72,987,594,BOI,-,-,Please name all of the ways you could use this object. Keep in mind that one object can have many uses. Separate your responses with a comma.,NA,y,20577,NA,NA,1566,19878,NA,NA,NA,"burn, place, light, throw, heat your house",1
k4g7611o9on@########.edu,w8u5w1agly,Affordance Norms_Butler,1,23,2023-02-13T21:07:14+00:00,16.27596092,20,updated stim.csv,Version20.csv,Version 20,List 20,craftsman,NA,585,4.833333333,679,586,BOI,-,-,Please name all of the ways you could use this object. Keep in mind that one object can have many uses. Separate your responses with a comma.,NA,y,16092,NA,NA,4019,14633,NA,NA,NA,"build, create, ask for instruction",1
k4g7611o9on@########.edu,w8u5w1agly,Affordance Norms_Butler,1,24,2023-02-13T21:07:33+00:00,19.19987297,20,updated stim.csv,Version20.csv,Version 20,List 20,dinner,NA,572,5.545454545,795,573,BOI,-,-,Please name all of the ways you could use this object. Keep in mind that one object can have many uses. Separate your responses with a comma.,NA,y,19017,NA,NA,2984,14342,NA,NA,NA,"discuss, eat, gather, commune, drink",1
k4g7611o9on@########.edu,w8u5w1agly,Affordance Norms_Butler,1,25,2023-02-13T21:07:54+00:00,21.65700412,20,updated stim.csv,Version20.csv,Version 20,List 20,pastry,NA,590,6.086956522,1886,591,BOI,-,-,Please name all of the ways you could use this object. Keep in mind that one object can have many uses. Separate your responses with a comma.,NA,y,21478,NA,NA,1609,20681,NA,NA,NA,"eat, make, consume, sell, give",1
k4g7611o9on@########.edu,w8u5w1agly,Affordance Norms_Butler,1,26,2023-02-13T21:08:07+00:00,12.8708899,20,updated stim.csv,Version20.csv,Version 20,List 20,neurologist,NA,595,4.384615385,1753,596,BOI,-,-,Please name all of the ways you could use this object. Keep in mind that one object can have many uses. Separate your responses with a comma.,NA,y,12693,NA,NA,3394,7145,NA,NA,NA,"ask, assess, help",1
k4g7611o9on@########.edu,w8u5w1agly,Affordance Norms_Butler,1,27,2023-02-13T21:08:25+00:00,18.14639807,20,updated stim.csv,Version20.csv,Version 20,List 20,shack,NA,583,5.125,2317,584,BOI,-,-,Please name all of the ways you could use this object. Keep in mind that one object can have many uses. Separate your responses with a comma.,NA,y,17968,NA,NA,1995,16043,NA,NA,NA,"reside in, store things, hang out",1
k4g7611o9on@########.edu,w8u5w1agly,Affordance Norms_Butler,1,28,2023-02-13T21:08:38+00:00,12.52743411,20,updated stim.csv,Version20.csv,Version 20,List 20,sedan,NA,586,5.565217391,2306,587,BOI,-,-,Please name all of the ways you could use this object. Keep in mind that one object can have many uses. Separate your responses with a comma.,NA,y,12319,NA,NA,3032,10256,NA,NA,NA,"drive, get from one place to another, parts",1
k4g7611o9on@########.edu,w8u5w1agly,Affordance Norms_Butler,1,29,2023-02-13T21:08:48+00:00,9.978702784,20,updated stim.csv,Version20.csv,Version 20,List 20,poinsettia,NA,576,5.347826087,2018,577,BOI,-,-,Please name all of the ways you could use this object. Keep in mind that one object can have many uses. Separate your responses with a comma.,NA,y,9770,NA,NA,3544,8375,NA,NA,NA,"give, plant, decorate",1
k4g7611o9on@########.edu,w8u5w1agly,Affordance Norms_Butler,1,30,2023-02-13T21:09:10+00:00,21.81638002,20,updated stim.csv,Version20.csv,Version 20,List 20,rodent,NA,591,5.041666667,2186,592,BOI,-,-,Please name all of the ways you could use this object. Keep in mind that one object can have many uses. Separate your responses with a comma.,NA,y,21637,NA,NA,9797,20420,NA,NA,NA,"train, experiment, get rid of",1
k4g7611o9on@########.edu,w8u5w1agly,Affordance Norms_Butler,1,31,2023-02-13T21:09:32+00:00,22.11912704,20,updated stim.csv,Version20.csv,Version 20,List 20,theatergoer,NA,581,5,2673,582,BOI,-,-,Please name all of the ways you could use this object. Keep in mind that one object can have many uses. Separate your responses with a comma.,NA,y,21940,NA,NA,10622,19493,NA,NA,NA,"hang out, discuss",1
k4g7611o9on@########.edu,w8u5w1agly,Affordance Norms_Butler,1,32,2023-02-13T21:09:50+00:00,18.38882804,20,updated stim.csv,Version20.csv,Version 20,List 20,sketchbook,NA,592,5.833333333,2394,593,BOI,-,-,Please name all of the ways you could use this object. Keep in mind that one object can have many uses. Separate your responses with a comma.,NA,y,18182,NA,NA,1655,16815,NA,NA,NA,"draw, sketch, look, paint, assess, give",1
k4g7611o9on@########.edu,w8u5w1agly,Affordance Norms_Butler,1,33,2023-02-13T21:10:13+00:00,22.57098508,20,updated stim.csv,Version20.csv,Version 20,List 20,gem,NA,597,5.517241379,1093,598,BOI,-,-,Please name all of the ways you could use this object. Keep in mind that one object can have many uses. Separate your responses with a comma.,NA,y,22389,NA,NA,6543,21277,NA,NA,NA,"make something, give, share, hold, look",1
k4g7611o9on@########.edu,w8u5w1agly,Affordance Norms_Butler,1,34,2023-02-13T21:10:40+00:00,27.60900903,20,updated stim.csv,Version20.csv,Version 20,List 20,crosswalk,NA,596,4.714285714,706,597,BOI,-,-,Please name all of the ways you could use this object. Keep in mind that one object can have many uses. Separate your responses with a comma.,NA,y,27426,NA,NA,5517,26235,NA,NA,NA,"cross, walk, run, skip, not get hit by a car",1
k4g7611o9on@########.edu,w8u5w1agly,Affordance Norms_Butler,1,35,2023-02-13T21:10:57+00:00,16.66893101,20,updated stim.csv,Version20.csv,Version 20,List 20,buddy,NA,588,4.916666667,344,589,BOI,-,-,Please name all of the ways you could use this object. Keep in mind that one object can have many uses. Separate your responses with a comma.,NA,y,16493,NA,NA,2958,12629,NA,NA,NA,"help, ask for advice, hang out",1
k4g7611o9on@########.edu,w8u5w1agly,Affordance Norms_Butler,1,36,2023-02-13T21:11:22+00:00,24.50483489,20,updated stim.csv,Version20.csv,Version 20,List 20,cocoa,NA,574,5.625,589,575,BOI,-,-,Please name all of the ways you could use this object. Keep in mind that one object can have many uses. Separate your responses with a comma.,NA,y,24315,NA,NA,2390,18733,NA,NA,NA,"make, use, cook, bake",1
k4g7611o9on@########.edu,w8u5w1agly,Affordance Norms_Butler,1,37,2023-02-13T21:11:36+00:00,14.74272299,20,updated stim.csv,Version20.csv,Version 20,List 20,breasts,NA,589,6.173913043,315,590,BOI,-,-,Please name all of the ways you could use this object. Keep in mind that one object can have many uses. Separate your responses with a comma.,NA,y,14478,NA,NA,2670,7741,NA,NA,NA,,1
k4g7611o9on@########.edu,w8u5w1agly,Affordance Norms_Butler,1,38,2023-02-13T21:11:57+00:00,20.52773905,20,updated stim.csv,Version20.csv,Version 20,List 20,garage,NA,575,4.96,1073,576,BOI,-,-,Please name all of the ways you could use this object. Keep in mind that one object can have many uses. Separate your responses with a comma.,NA,y,20307,NA,NA,1690,18145,NA,NA,NA,"store, store car, clean",1
k4g7611o9on@########.edu,w8u5w1agly,Affordance Norms_Butler,1,39,2023-02-13T21:12:07+00:00,10.34360099,20,updated stim.csv,Version20.csv,Version 20,List 20,novel,NA,578,5.4,1783,579,BOI,-,-,Please name all of the ways you could use this object. Keep in mind that one object can have many uses. Separate your responses with a comma.,NA,y,10169,NA,NA,1218,9002,NA,NA,NA,"read, assess, discuss, sell, write",1
k4g7611o9on@########.edu,w8u5w1agly,Affordance Norms_Butler,1,40,2023-02-13T21:12:20+00:00,12.3745079,20,updated stim.csv,Version20.csv,Version 20,List 20,flapjack,NA,571,5.2,1000,572,BOI,-,-,Please name all of the ways you could use this object. Keep in mind that one object can have many uses. Separate your responses with a comma.,NA,y,12159,NA,NA,2245,10061,NA,NA,NA,"cook, eat, flip, consume, give",1
lcz7j39@########.edu,ynvz17xtbm,Affordance Norms_Butler,1,11,2023-03-02T18:49:06+00:00,15.92007494,26,updated stim.csv,Version26.csv,Version 26,List 26,citrus,NA,762,4.6,544,763,BOI,-,-,Please name all of the ways you could use this object. Keep in mind that one object can have many uses. Separate your responses with a comma.,NA,y,15736,NA,NA,3453,15533,NA,NA,NA,"eat, season, squeeeze",1
lcz7j39@########.edu,ynvz17xtbm,Affordance Norms_Butler,1,12,2023-03-02T18:49:20+00:00,14.47450495,26,updated stim.csv,Version26.csv,Version 26,List 26,prisoner,NA,753,4.307692308,2067,754,BOI,-,-,Please name all of the ways you could use this object. Keep in mind that one object can have many uses. Separate your responses with a comma.,NA,y,14284,NA,NA,7582,9702,NA,NA,NA,captive,1
lcz7j39@########.edu,ynvz17xtbm,Affordance Norms_Butler,1,13,2023-03-02T18:49:25+00:00,4.521955013,26,updated stim.csv,Version26.csv,Version 26,List 26,crepe,NA,756,5.416666667,692,757,BOI,-,-,Please name all of the ways you could use this object. Keep in mind that one object can have many uses. Separate your responses with a comma.,NA,y,4336,NA,NA,2178,4059,NA,NA,NA,"eat, cook",1
lcz7j39@########.edu,ynvz17xtbm,Affordance Norms_Butler,1,14,2023-03-02T18:49:35+00:00,10.0828321,26,updated stim.csv,Version26.csv,Version 26,List 26,poster,NA,764,5.583333333,2043,765,BOI,-,-,Please name all of the ways you could use this object. Keep in mind that one object can have many uses. Separate your responses with a comma.,NA,y,9896,NA,NA,1585,9456,NA,NA,NA,"hang, decorate, display ",1
lcz7j39@########.edu,ynvz17xtbm,Affordance Norms_Butler,1,15,2023-03-02T18:49:40+00:00,5.189821959,26,updated stim.csv,Version26.csv,Version 26,List 26,mistletoe,NA,774,4.592592593,1668,775,BOI,-,-,Please name all of the ways you could use this object. Keep in mind that one object can have many uses. Separate your responses with a comma.,NA,y,5005,NA,NA,2001,4792,NA,NA,NA,"hang, smell",1
lcz7j39@########.edu,ynvz17xtbm,Affordance Norms_Butler,1,16,2023-03-02T18:49:49+00:00,9.125715017,26,updated stim.csv,Version26.csv,Version 26,List 26,wallet,NA,768,6.136363636,2888,769,BOI,-,-,Please name all of the ways you could use this object. Keep in mind that one object can have many uses. Separate your responses with a comma.,NA,y,8940,NA,NA,2040,8792,NA,NA,NA,holder,1
lcz7j39@########.edu,ynvz17xtbm,Affordance Norms_Butler,1,17,2023-03-02T18:49:59+00:00,9.56636405,26,updated stim.csv,Version26.csv,Version 26,List 26,marble,NA,776,5.48,1602,777,BOI,-,-,Please name all of the ways you could use this object. Keep in mind that one object can have many uses. Separate your responses with a comma.,NA,y,9384,NA,NA,2070,6620,NA,NA,NA,countertop,1
lcz7j39@########.edu,ynvz17xtbm,Affordance Norms_Butler,1,18,2023-03-02T18:50:02+00:00,3.329272032,26,updated stim.csv,Version26.csv,Version 26,List 26,rucksack,NA,755,5.041666667,2203,756,BOI,-,-,Please name all of the ways you could use this object. Keep in mind that one object can have many uses. Separate your responses with a comma.,NA,y,3229,NA,NA,-1,-1,NA,NA,NA,,1
lcz7j39@########.edu,ynvz17xtbm,Affordance Norms_Butler,1,19,2023-03-02T18:50:10+00:00,7.449038982,26,updated stim.csv,Version26.csv,Version 26,List 26,snot,NA,761,5.32,2429,762,BOI,-,-,Please name all of the ways you could use this object. Keep in mind that one object can have many uses. Separate your responses with a comma.,NA,y,7270,NA,NA,4091,6185,NA,NA,NA,clear sinus,1
lcz7j39@########.edu,ynvz17xtbm,Affordance Norms_Butler,1,20,2023-03-02T18:50:24+00:00,14.65242696,26,updated stim.csv,Version26.csv,Version 26,List 26,caretaker,NA,770,5.071428571,433,771,BOI,-,-,Please name all of the ways you could use this object. Keep in mind that one object can have many uses. Separate your responses with a comma.,NA,y,14463,NA,NA,9809,14047,NA,NA,NA,take care of people,1
lcz7j39@########.edu,ynvz17xtbm,Affordance Norms_Butler,1,21,2023-03-02T18:50:28+00:00,3.818274021,26,updated stim.csv,Version26.csv,Version 26,List 26,paratrooper,NA,767,4.291666667,1872,768,BOI,-,-,Please name all of the ways you could use this object. Keep in mind that one object can have many uses. Separate your responses with a comma.,NA,y,3719,NA,NA,-1,-1,NA,NA,NA,,1
lcz7j39@########.edu,ynvz17xtbm,Affordance Norms_Butler,1,22,2023-03-02T18:50:33+00:00,4.597074986,26,updated stim.csv,Version26.csv,Version 26,List 26,merchantman,NA,773,4.5,1649,774,BOI,-,-,Please name all of the ways you could use this object. Keep in mind that one object can have many uses. Separate your responses with a comma.,NA,y,4415,NA,NA,2651,4145,NA,NA,NA,sell things ,1
lcz7j39@########.edu,ynvz17xtbm,Affordance Norms_Butler,1,23,2023-03-02T18:50:37+00:00,4.635308027,26,updated stim.csv,Version26.csv,Version 26,List 26,hatchet,NA,779,5.791666667,1261,780,BOI,-,-,Please name all of the ways you could use this object. Keep in mind that one object can have many uses. Separate your responses with a comma.,NA,y,4454,NA,NA,-1,-1,NA,NA,NA,,1
lcz7j39@########.edu,ynvz17xtbm,Affordance Norms_Butler,1,24,2023-03-02T18:50:58+00:00,20.3950839,26,updated stim.csv,Version26.csv,Version 26,List 26,magazine,NA,752,6.166666667,1569,753,BOI,-,-,Please name all of the ways you could use this object. Keep in mind that one object can have many uses. Separate your responses with a comma.,NA,y,20209,NA,NA,3373,19931,NA,NA,NA,"advertise, display, model",1
lcz7j39@########.edu,ynvz17xtbm,Affordance Norms_Butler,1,25,2023-03-02T18:51:02+00:00,4.552222967,26,updated stim.csv,Version26.csv,Version 26,List 26,steelworker,NA,778,4.44,2518,779,BOI,-,-,Please name all of the ways you could use this object. Keep in mind that one object can have many uses. Separate your responses with a comma.,NA,y,4365,NA,NA,2689,4167,NA,NA,NA,get steel,1
lcz7j39@########.edu,ynvz17xtbm,Affordance Norms_Butler,1,26,2023-03-02T18:51:10+00:00,7.695303202,26,updated stim.csv,Version26.csv,Version 26,List 26,head,NA,780,5.48,1263,781,BOI,-,-,Please name all of the ways you could use this object. Keep in mind that one object can have many uses. Separate your responses with a comma.,NA,y,7510,NA,NA,4784,6190,NA,NA,NA,hold brain ,1
lcz7j39@########.edu,ynvz17xtbm,Affordance Norms_Butler,1,27,2023-03-02T18:51:20+00:00,10.32939386,26,updated stim.csv,Version26.csv,Version 26,List 26,powder,NA,758,5.416666667,2054,759,BOI,-,-,Please name all of the ways you could use this object. Keep in mind that one object can have many uses. Separate your responses with a comma.,NA,y,10128,NA,NA,6971,9954,NA,NA,NA,"baking, snow",1
lcz7j39@########.edu,ynvz17xtbm,Affordance Norms_Butler,1,28,2023-03-02T18:51:28+00:00,7.630491018,26,updated stim.csv,Version26.csv,Version 26,List 26,weapon,NA,763,5.52173913,2914,764,BOI,-,-,Please name all of the ways you could use this object. Keep in mind that one object can have many uses. Separate your responses with a comma.,NA,y,7444,NA,NA,1776,7055,NA,NA,NA,"kill, hurt, defense",1
lcz7j39@########.edu,ynvz17xtbm,Affordance Norms_Butler,1,29,2023-03-02T18:51:32+00:00,3.958645105,26,updated stim.csv,Version26.csv,Version 26,List 26,pincushion,NA,757,5.260869565,1969,758,BOI,-,-,Please name all of the ways you could use this object. Keep in mind that one object can have many uses. Separate your responses with a comma.,NA,y,3853,NA,NA,-1,-1,NA,NA,NA,,1
lcz7j39@########.edu,ynvz17xtbm,Affordance Norms_Butler,1,30,2023-03-02T18:51:35+00:00,2.937805891,26,updated stim.csv,Version26.csv,Version 26,List 26,thumbscrew,NA,760,5.173913043,2689,761,BOI,-,-,Please name all of the ways you could use this object. Keep in mind that one object can have many uses. Separate your responses with a comma.,NA,y,2835,NA,NA,-1,-1,NA,NA,NA,,1
lcz7j39@########.edu,ynvz17xtbm,Affordance Norms_Butler,1,31,2023-03-02T18:51:37+00:00,2.322267056,26,updated stim.csv,Version26.csv,Version 26,List 26,slug,NA,751,4.434782609,2418,752,BOI,-,-,Please name all of the ways you could use this object. Keep in mind that one object can have many uses. Separate your responses with a comma.,NA,y,2215,NA,NA,1667,1993,NA,NA,NA,bug,1
lcz7j39@########.edu,ynvz17xtbm,Affordance Norms_Butler,1,32,2023-03-02T18:51:47+00:00,9.419751883,26,updated stim.csv,Version26.csv,Version 26,List 26,roast,NA,759,4.821428571,2179,760,BOI,-,-,Please name all of the ways you could use this object. Keep in mind that one object can have many uses. Separate your responses with a comma.,NA,y,9237,NA,NA,3113,8335,NA,NA,NA,cooking or baking ,1
lcz7j39@########.edu,ynvz17xtbm,Affordance Norms_Butler,1,33,2023-03-02T18:51:47+00:00,0.202231169,26,updated stim.csv,Version26.csv,Version 26,List 26,beverage,NA,771,6.208333333,206,772,BOI,-,-,Please name all of the ways you could use this object. Keep in mind that one object can have many uses. Separate your responses with a comma.,NA,y,107,NA,NA,-1,-1,NA,NA,NA,,1
lcz7j39@########.edu,ynvz17xtbm,Affordance Norms_Butler,1,34,2023-03-02T18:52:14+00:00,26.77637386,26,updated stim.csv,Version26.csv,Version 26,List 26,sauce,NA,754,5.130434783,2247,755,BOI,-,-,Please name all of the ways you could use this object. Keep in mind that one object can have many uses. Separate your responses with a comma.,NA,y,26593,NA,NA,11989,25405,NA,NA,NA,"condiment, season, taste",1
lcz7j39@########.edu,ynvz17xtbm,Affordance Norms_Butler,1,35,2023-03-02T18:52:26+00:00,12.00890207,26,updated stim.csv,Version26.csv,Version 26,List 26,insect,NA,777,5.125,1357,778,BOI,-,-,Please name all of the ways you could use this object. Keep in mind that one object can have many uses. Separate your responses with a comma.,NA,y,11822,NA,NA,4417,11185,NA,NA,NA,"crawl, eat bugs",1
lcz7j39@########.edu,ynvz17xtbm,Affordance Norms_Butler,1,36,2023-03-02T18:52:29+00:00,3.58613205,26,updated stim.csv,Version26.csv,Version 26,List 26,pal,NA,765,4.333333333,1852,766,BOI,-,-,Please name all of the ways you could use this object. Keep in mind that one object can have many uses. Separate your responses with a comma.,NA,y,3458,NA,NA,1757,2699,NA,NA,NA,friend,1
lcz7j39@########.edu,ynvz17xtbm,Affordance Norms_Butler,1,37,2023-03-02T18:52:40+00:00,11.10088587,26,updated stim.csv,Version26.csv,Version 26,List 26,lamb,NA,769,4.444444444,1453,770,BOI,-,-,Please name all of the ways you could use this object. Keep in mind that one object can have many uses. Separate your responses with a comma.,NA,y,10918,NA,NA,2306,10729,NA,NA,NA,"animal on farm, cook, eat",1
lcz7j39@########.edu,ynvz17xtbm,Affordance Norms_Butler,1,38,2023-03-02T18:52:44+00:00,3.755849123,26,updated stim.csv,Version26.csv,Version 26,List 26,revolver,NA,775,5.555555556,2161,776,BOI,-,-,Please name all of the ways you could use this object. Keep in mind that one object can have many uses. Separate your responses with a comma.,NA,y,3655,NA,NA,2507,2507,NA,NA,NA,,1
lcz7j39@########.edu,ynvz17xtbm,Affordance Norms_Butler,1,39,2023-03-02T18:52:46+00:00,2.460197926,26,updated stim.csv,Version26.csv,Version 26,List 26,tracksuit,NA,766,5.653846154,2752,767,BOI,-,-,Please name all of the ways you could use this object. Keep in mind that one object can have many uses. Separate your responses with a comma.,NA,y,2356,NA,NA,1657,2159,NA,NA,NA,wear,1
lcz7j39@########.edu,ynvz17xtbm,Affordance Norms_Butler,1,40,2023-03-02T18:52:50+00:00,3.249051094,26,updated stim.csv,Version26.csv,Version 26,List 26,mat,NA,772,5.814814815,1619,773,BOI,-,-,Please name all of the ways you could use this object. Keep in mind that one object can have many uses. Separate your responses with a comma.,NA,y,3146,NA,NA,1827,2844,NA,NA,NA,set on,1
ha99q256@########.edu,yg4opokobf,Affordance Norms_Butler,1,11,2023-02-22T15:45:14+00:00,17.25258183,23,updated stim.csv,Version23.csv,Version 23,List 23,ice,NA,685,5.458333333,1344,686,BOI,-,-,Please name all of the ways you could use this object. Keep in mind that one object can have many uses. Separate your responses with a comma.,NA,y,17071,NA,NA,1739,16881,NA,NA,NA,"scate, cube, storm, ball",1
ha99q256@########.edu,yg4opokobf,Affordance Norms_Butler,1,12,2023-02-22T15:45:22+00:00,8.632471085,23,updated stim.csv,Version23.csv,Version 23,List 23,actress,NA,684,4.92,11,685,BOI,-,-,Please name all of the ways you could use this object. Keep in mind that one object can have many uses. Separate your responses with a comma.,NA,y,8459,NA,NA,-1,-1,NA,NA,NA,,1
ha99q256@########.edu,yg4opokobf,Affordance Norms_Butler,1,13,2023-02-22T15:45:36+00:00,13.66141701,23,updated stim.csv,Version23.csv,Version 23,List 23,lodge,NA,677,4.833333333,1539,678,BOI,-,-,Please name all of the ways you could use this object. Keep in mind that one object can have many uses. Separate your responses with a comma.,NA,y,13485,NA,NA,2600,12535,NA,NA,NA,"home, sleep, protect",1
ha99q256@########.edu,yg4opokobf,Affordance Norms_Butler,1,14,2023-02-22T15:45:47+00:00,11.00709486,23,updated stim.csv,Version23.csv,Version 23,List 23,breadbasket,NA,680,5.222222222,309,681,BOI,-,-,Please name all of the ways you could use this object. Keep in mind that one object can have many uses. Separate your responses with a comma.,NA,y,10829,NA,NA,3782,10705,NA,NA,NA,"eat, gift, serve, feed",1
ha99q256@########.edu,yg4opokobf,Affordance Norms_Butler,1,15,2023-02-22T15:46:02+00:00,15.51371002,23,updated stim.csv,Version23.csv,Version 23,List 23,honeydew,NA,667,5.444444444,1304,668,BOI,-,-,Please name all of the ways you could use this object. Keep in mind that one object can have many uses. Separate your responses with a comma.,NA,y,14850,NA,NA,3081,14096,NA,NA,NA,"eat, chop, grow",1
ha99q256@########.edu,yg4opokobf,Affordance Norms_Butler,1,16,2023-02-22T15:46:24+00:00,21.58174205,23,updated stim.csv,Version23.csv,Version 23,List 23,box,NA,668,6.291666667,294,669,BOI,-,-,Please name all of the ways you could use this object. Keep in mind that one object can have many uses. Separate your responses with a comma.,NA,y,21401,NA,NA,6228,20428,NA,NA,NA,"smash, build, gift, ship, bring",1
ha99q256@########.edu,yg4opokobf,Affordance Norms_Butler,1,17,2023-02-22T15:46:38+00:00,13.98306513,23,updated stim.csv,Version23.csv,Version 23,List 23,turtleneck,NA,681,5.375,2806,682,BOI,-,-,Please name all of the ways you could use this object. Keep in mind that one object can have many uses. Separate your responses with a comma.,NA,y,13811,NA,NA,1833,13570,NA,NA,NA,"wear, protect, own",1
ha99q256@########.edu,yg4opokobf,Affordance Norms_Butler,1,18,2023-02-22T15:46:55+00:00,17.06407785,23,updated stim.csv,Version23.csv,Version 23,List 23,woodcraft,NA,664,4.296296296,2959,665,BOI,-,-,Please name all of the ways you could use this object. Keep in mind that one object can have many uses. Separate your responses with a comma.,NA,y,16893,NA,NA,2152,16712,NA,NA,NA,"carve, make new things, design, gift",1
ha99q256@########.edu,yg4opokobf,Affordance Norms_Butler,1,19,2023-02-22T15:47:11+00:00,15.90748405,23,updated stim.csv,Version23.csv,Version 23,List 23,slide,NA,675,5.130434783,2411,676,BOI,-,-,Please name all of the ways you could use this object. Keep in mind that one object can have many uses. Separate your responses with a comma.,NA,y,15730,NA,NA,4869,12812,NA,NA,NA,"go down, over, around, play ",1
ha99q256@########.edu,yg4opokobf,Affordance Norms_Butler,1,20,2023-02-22T15:47:24+00:00,13.39061499,23,updated stim.csv,Version23.csv,Version 23,List 23,journal,NA,674,6,1390,675,BOI,-,-,Please name all of the ways you could use this object. Keep in mind that one object can have many uses. Separate your responses with a comma.,NA,y,13210,NA,NA,1918,12965,NA,NA,NA,"write, discuss, debrief, communicate",1
ha99q256@########.edu,yg4opokobf,Affordance Norms_Butler,1,21,2023-02-22T15:47:41+00:00,17.07207394,23,updated stim.csv,Version23.csv,Version 23,List 23,auditorium,NA,683,4.392857143,97,684,BOI,-,-,Please name all of the ways you could use this object. Keep in mind that one object can have many uses. Separate your responses with a comma.,NA,y,16892,NA,NA,4439,13943,NA,NA,NA,"watch, ",1
ha99q256@########.edu,yg4opokobf,Affordance Norms_Butler,1,22,2023-02-22T15:47:43+00:00,1.481166124,23,updated stim.csv,Version23.csv,Version 23,List 23,podiatrist,NA,662,4.791666667,2016,663,BOI,-,-,Please name all of the ways you could use this object. Keep in mind that one object can have many uses. Separate your responses with a comma.,NA,y,1384,NA,NA,-1,-1,NA,NA,NA,,1
ha99q256@########.edu,yg4opokobf,Affordance Norms_Butler,1,23,2023-02-22T15:48:02+00:00,19.44582891,23,updated stim.csv,Version23.csv,Version 23,List 23,Shirt,NA,676,6.473045822,2346,677,BOI,-,-,Please name all of the ways you could use this object. Keep in mind that one object can have many uses. Separate your responses with a comma.,NA,y,19273,NA,NA,1285,19165,NA,NA,NA,"wear, protect, give",1
ha99q256@########.edu,yg4opokobf,Affordance Norms_Butler,1,24,2023-02-22T15:48:18+00:00,15.29646707,23,updated stim.csv,Version23.csv,Version 23,List 23,stapler,NA,682,6.458333333,2508,683,BOI,-,-,Please name all of the ways you could use this object. Keep in mind that one object can have many uses. Separate your responses with a comma.,NA,y,15117,NA,NA,2792,13903,NA,NA,NA,"hang, bind, connect,",1
ha99q256@########.edu,yg4opokobf,Affordance Norms_Butler,1,25,2023-02-22T15:48:28+00:00,10.76097798,23,updated stim.csv,Version23.csv,Version 23,List 23,suture,NA,686,4.652173913,2600,687,BOI,-,-,Please name all of the ways you could use this object. Keep in mind that one object can have many uses. Separate your responses with a comma.,NA,y,10589,NA,NA,3163,10058,NA,NA,NA,"heal, bind, protect",1
ha99q256@########.edu,yg4opokobf,Affordance Norms_Butler,1,26,2023-02-22T15:48:48+00:00,19.9178071,23,updated stim.csv,Version23.csv,Version 23,List 23,pill,NA,666,6.36,1960,667,BOI,-,-,Please name all of the ways you could use this object. Keep in mind that one object can have many uses. Separate your responses with a comma.,NA,y,19736,NA,NA,2690,19554,NA,NA,NA,"take, dissolve, smash",1
ha99q256@########.edu,yg4opokobf,Affordance Norms_Butler,1,27,2023-02-22T15:48:56+00:00,7.264533997,23,updated stim.csv,Version23.csv,Version 23,List 23,shovel,NA,688,5.925925926,2363,689,BOI,-,-,Please name all of the ways you could use this object. Keep in mind that one object can have many uses. Separate your responses with a comma.,NA,y,7081,NA,NA,1805,6972,NA,NA,NA,"dig, find, have",1
ha99q256@########.edu,yg4opokobf,Affordance Norms_Butler,1,28,2023-02-22T15:49:12+00:00,16.07146978,23,updated stim.csv,Version23.csv,Version 23,List 23,shaker,NA,673,4.36,2318,674,BOI,-,-,Please name all of the ways you could use this object. Keep in mind that one object can have many uses. Separate your responses with a comma.,NA,y,15893,NA,NA,2986,15753,NA,NA,NA,"disperse, provide",1
ha99q256@########.edu,yg4opokobf,Affordance Norms_Butler,1,29,2023-02-22T15:49:13+00:00,1.595518112,23,updated stim.csv,Version23.csv,Version 23,List 23,bifocals,NA,672,5.875,212,673,BOI,-,-,Please name all of the ways you could use this object. Keep in mind that one object can have many uses. Separate your responses with a comma.,NA,y,1498,NA,NA,-1,-1,NA,NA,NA,,1
ha99q256@########.edu,yg4opokobf,Affordance Norms_Butler,1,30,2023-02-22T15:49:23+00:00,9.772805929,23,updated stim.csv,Version23.csv,Version 23,List 23,earplug,NA,689,6.111111111,879,690,BOI,-,-,Please name all of the ways you could use this object. Keep in mind that one object can have many uses. Separate your responses with a comma.,NA,y,9600,NA,NA,3331,9538,NA,NA,NA,"tune out, ignore",1
ha99q256@########.edu,yg4opokobf,Affordance Norms_Butler,1,31,2023-02-22T15:49:35+00:00,11.77011609,23,updated stim.csv,Version23.csv,Version 23,List 23,flowerbed,NA,670,5.041666667,1016,671,BOI,-,-,Please name all of the ways you could use this object. Keep in mind that one object can have many uses. Separate your responses with a comma.,NA,y,11592,NA,NA,2171,11410,NA,NA,NA,"plant, beautiful, grow life,",1
ha99q256@########.edu,yg4opokobf,Affordance Norms_Butler,1,32,2023-02-22T15:49:50+00:00,14.91835904,23,updated stim.csv,Version23.csv,Version 23,List 23,child,NA,661,5.695652174,520,662,BOI,-,-,Please name all of the ways you could use this object. Keep in mind that one object can have many uses. Separate your responses with a comma.,NA,y,14738,NA,NA,4526,12022,NA,NA,NA,"retrieve, new",1
ha99q256@########.edu,yg4opokobf,Affordance Norms_Butler,1,33,2023-02-22T15:50:04+00:00,14.72037101,23,updated stim.csv,Version23.csv,Version 23,List 23,crown,NA,679,6.173913043,711,680,BOI,-,-,Please name all of the ways you could use this object. Keep in mind that one object can have many uses. Separate your responses with a comma.,NA,y,14542,NA,NA,3098,14481,NA,NA,NA,"on head, assert dominance",1
ha99q256@########.edu,yg4opokobf,Affordance Norms_Butler,1,34,2023-02-22T15:50:14+00:00,9.189302921,23,updated stim.csv,Version23.csv,Version 23,List 23,prize,NA,687,4.916666667,2069,688,BOI,-,-,Please name all of the ways you could use this object. Keep in mind that one object can have many uses. Separate your responses with a comma.,NA,y,9015,NA,NA,2115,8907,NA,NA,NA,"gift, win, boast",1
ha99q256@########.edu,yg4opokobf,Affordance Norms_Butler,1,35,2023-02-22T15:50:16+00:00,2.155115128,23,updated stim.csv,Version23.csv,Version 23,List 23,heroin,NA,665,4.423076923,1282,666,BOI,-,-,Please name all of the ways you could use this object. Keep in mind that one object can have many uses. Separate your responses with a comma.,NA,y,2059,NA,NA,-1,-1,NA,NA,NA,,1
ha99q256@########.edu,yg4opokobf,Affordance Norms_Butler,1,36,2023-02-22T15:50:30+00:00,14.54430294,23,updated stim.csv,Version23.csv,Version 23,List 23,bucket,NA,669,6,341,670,BOI,-,-,Please name all of the ways you could use this object. Keep in mind that one object can have many uses. Separate your responses with a comma.,NA,y,14370,NA,NA,6646,14245,NA,NA,NA,"fill, dump, pass",1
ha99q256@########.edu,yg4opokobf,Affordance Norms_Butler,1,37,2023-02-22T15:50:34+00:00,3.727793932,23,updated stim.csv,Version23.csv,Version 23,List 23,pantaloons,NA,690,4.695652174,1858,691,BOI,-,-,Please name all of the ways you could use this object. Keep in mind that one object can have many uses. Separate your responses with a comma.,NA,y,3628,NA,NA,-1,-1,NA,NA,NA,,1
ha99q256@########.edu,yg4opokobf,Affordance Norms_Butler,1,38,2023-02-22T15:50:42+00:00,7.97061801,23,updated stim.csv,Version23.csv,Version 23,List 23,brick,NA,671,5.64,317,672,BOI,-,-,Please name all of the ways you could use this object. Keep in mind that one object can have many uses. Separate your responses with a comma.,NA,y,7794,NA,NA,1557,7388,NA,NA,NA,"throw, build, design",1
ha99q256@########.edu,yg4opokobf,Affordance Norms_Butler,1,39,2023-02-22T15:50:52+00:00,10.14779902,23,updated stim.csv,Version23.csv,Version 23,List 23,diaper,NA,678,5.64,787,679,BOI,-,-,Please name all of the ways you could use this object. Keep in mind that one object can have many uses. Separate your responses with a comma.,NA,y,9970,NA,NA,1918,9781,NA,NA,NA,"protect, hold, catch",1
ha99q256@########.edu,yg4opokobf,Affordance Norms_Butler,1,40,2023-02-22T15:51:06+00:00,13.95903492,23,updated stim.csv,Version23.csv,Version 23,List 23,lasso,NA,663,5.555555556,1468,664,BOI,-,-,Please name all of the ways you could use this object. Keep in mind that one object can have many uses. Separate your responses with a comma.,NA,y,13777,NA,NA,2062,10092,NA,NA,NA,"catch, protect",1
67llmn7BD@########.edu,e1xpj095hg,Affordance Norms_Butler,1,11,2023-02-17T21:06:09+00:00,9.6097579,22,updated stim.csv,Version22.csv,Version 22,List 22,junk,NA,656,4.962962963,1396,657,BOI,-,-,Please name all of the ways you could use this object. Keep in mind that one object can have many uses. Separate your responses with a comma.,NA,y,9436,NA,NA,4407,9140,NA,NA,NA,"donate, throw away, store",1
67llmn7BD@########.edu,e1xpj095hg,Affordance Norms_Butler,1,12,2023-02-17T21:06:21+00:00,11.70516896,22,updated stim.csv,Version22.csv,Version 22,List 22,trunk,NA,631,5.217391304,2788,632,BOI,-,-,Please name all of the ways you could use this object. Keep in mind that one object can have many uses. Separate your responses with a comma.,NA,y,11527,NA,NA,6249,11185,NA,NA,NA,"pack, sit on, lift",1
67llmn7BD@########.edu,e1xpj095hg,Affordance Norms_Butler,1,13,2023-02-17T21:06:34+00:00,12.43641806,22,updated stim.csv,Version22.csv,Version 22,List 22,diaphragm,NA,641,4.269230769,788,642,BOI,-,-,Please name all of the ways you could use this object. Keep in mind that one object can have many uses. Separate your responses with a comma.,NA,y,12256,NA,NA,9107,10169,NA,NA,NA,collapse,1
67llmn7BD@########.edu,e1xpj095hg,Affordance Norms_Butler,1,14,2023-02-17T21:06:44+00:00,10.53188705,22,updated stim.csv,Version22.csv,Version 22,List 22,parachute,NA,636,4.68,1868,637,BOI,-,-,Please name all of the ways you could use this object. Keep in mind that one object can have many uses. Separate your responses with a comma.,NA,y,10351,NA,NA,1057,8201,NA,NA,NA,"open, pack, attach",1
67llmn7BD@########.edu,e1xpj095hg,Affordance Norms_Butler,1,15,2023-02-17T21:07:07+00:00,22.53698993,22,updated stim.csv,Version22.csv,Version 22,List 22,rosebush,NA,654,5.333333333,2195,655,BOI,-,-,Please name all of the ways you could use this object. Keep in mind that one object can have many uses. Separate your responses with a comma.,NA,y,22358,NA,NA,8456,19879,NA,NA,NA,"pick, admire, garden, ",1
67llmn7BD@########.edu,e1xpj095hg,Affordance Norms_Butler,1,16,2023-02-17T21:07:22+00:00,15.43693495,22,updated stim.csv,Version22.csv,Version 22,List 22,nightstick,NA,638,5.434782609,1774,639,BOI,-,-,Please name all of the ways you could use this object. Keep in mind that one object can have many uses. Separate your responses with a comma.,NA,y,15254,NA,NA,1385,13872,NA,NA,NA,"hit, throw, wield, hold",1
67llmn7BD@########.edu,e1xpj095hg,Affordance Norms_Butler,1,17,2023-02-17T21:07:43+00:00,20.70699906,22,updated stim.csv,Version22.csv,Version 22,List 22,drone,NA,660,4.291666667,851,661,BOI,-,-,Please name all of the ways you could use this object. Keep in mind that one object can have many uses. Separate your responses with a comma.,NA,y,20528,NA,NA,2899,19178,NA,NA,NA,"fly, drive, operate, spy",1
67llmn7BD@########.edu,e1xpj095hg,Affordance Norms_Butler,1,18,2023-02-17T21:08:12+00:00,28.74974895,22,updated stim.csv,Version22.csv,Version 22,List 22,dress,NA,658,6.16,843,659,BOI,-,-,Please name all of the ways you could use this object. Keep in mind that one object can have many uses. Separate your responses with a comma.,NA,y,28571,NA,NA,1502,27926,NA,NA,NA,"wear, gift, wash, iron, fold",1
67llmn7BD@########.edu,e1xpj095hg,Affordance Norms_Butler,1,19,2023-02-17T21:08:31+00:00,19.20034814,22,updated stim.csv,Version22.csv,Version 22,List 22,mountainside,NA,635,4.708333333,1700,636,BOI,-,-,Please name all of the ways you could use this object. Keep in mind that one object can have many uses. Separate your responses with a comma.,NA,y,19024,NA,NA,2492,17170,NA,NA,NA,"hike, climb, camp, view, admire, explore",1
67llmn7BD@########.edu,e1xpj095hg,Affordance Norms_Butler,1,20,2023-02-17T21:08:52+00:00,21.112813,22,updated stim.csv,Version22.csv,Version 22,List 22,beach,NA,637,5.666666667,176,638,BOI,-,-,Please name all of the ways you could use this object. Keep in mind that one object can have many uses. Separate your responses with a comma.,NA,y,20938,NA,NA,1893,15755,NA,NA,NA,"swim, run, walk, bike, lounge",1
67llmn7BD@########.edu,e1xpj095hg,Affordance Norms_Butler,1,21,2023-02-17T21:09:02+00:00,9.991349936,22,updated stim.csv,Version22.csv,Version 22,List 22,shed,NA,653,4.333333333,2327,654,BOI,-,-,Please name all of the ways you could use this object. Keep in mind that one object can have many uses. Separate your responses with a comma.,NA,y,9815,NA,NA,1178,8866,NA,NA,NA,"store, build, clean, open",1
67llmn7BD@########.edu,e1xpj095hg,Affordance Norms_Butler,1,22,2023-02-17T21:09:33+00:00,30.76339412,22,updated stim.csv,Version22.csv,Version 22,List 22,boat,NA,644,5.130434783,255,645,BOI,-,-,Please name all of the ways you could use this object. Keep in mind that one object can have many uses. Separate your responses with a comma.,NA,y,30585,NA,NA,5292,25844,NA,NA,NA,"boat, swim, lounge, relax, enjoy, nap, lunch, ",1
67llmn7BD@########.edu,e1xpj095hg,Affordance Norms_Butler,1,23,2023-02-17T21:09:43+00:00,10.43484092,22,updated stim.csv,Version22.csv,Version 22,List 22,buckwheat,NA,639,4.44,343,640,BOI,-,-,Please name all of the ways you could use this object. Keep in mind that one object can have many uses. Separate your responses with a comma.,NA,y,10251,NA,NA,2597,3732,NA,NA,NA,eat,1
67llmn7BD@########.edu,e1xpj095hg,Affordance Norms_Butler,1,24,2023-02-17T21:09:53+00:00,10.03520989,22,updated stim.csv,Version22.csv,Version 22,List 22,wigmaker,NA,645,4.36,2936,646,BOI,-,-,Please name all of the ways you could use this object. Keep in mind that one object can have many uses. Separate your responses with a comma.,NA,y,9842,NA,NA,7830,8141,NA,NA,NA,pay,1
67llmn7BD@########.edu,e1xpj095hg,Affordance Norms_Butler,1,25,2023-02-17T21:10:03+00:00,10.19269609,22,updated stim.csv,Version22.csv,Version 22,List 22,peephole,NA,643,4.875,1907,644,BOI,-,-,Please name all of the ways you could use this object. Keep in mind that one object can have many uses. Separate your responses with a comma.,NA,y,10014,NA,NA,2929,9249,NA,NA,NA,"look through, view, spy",1
67llmn7BD@########.edu,e1xpj095hg,Affordance Norms_Butler,1,26,2023-02-17T21:10:20+00:00,16.80988789,22,updated stim.csv,Version22.csv,Version 22,List 22,needlepoint,NA,640,4.576923077,1746,641,BOI,-,-,Please name all of the ways you could use this object. Keep in mind that one object can have many uses. Separate your responses with a comma.,NA,y,16619,NA,NA,4219,12578,NA,NA,NA,"poke, hurt, stitch, sew",1
67llmn7BD@########.edu,e1xpj095hg,Affordance Norms_Butler,1,27,2023-02-17T21:10:38+00:00,17.99945402,22,updated stim.csv,Version22.csv,Version 22,List 22,rabbit,NA,642,5,2117,643,BOI,-,-,Please name all of the ways you could use this object. Keep in mind that one object can have many uses. Separate your responses with a comma.,NA,y,17820,NA,NA,1415,17373,NA,NA,NA,"hunt, eat, chase, catch, play with, feed",1
67llmn7BD@########.edu,e1xpj095hg,Affordance Norms_Butler,1,28,2023-02-17T21:10:58+00:00,19.83829117,22,updated stim.csv,Version22.csv,Version 22,List 22,artist,NA,651,4.782608696,80,652,BOI,-,-,Please name all of the ways you could use this object. Keep in mind that one object can have many uses. Separate your responses with a comma.,NA,y,19661,NA,NA,1992,18727,NA,NA,NA,"pay, commission, admire, appreciate",1
67llmn7BD@########.edu,e1xpj095hg,Affordance Norms_Butler,1,29,2023-02-17T21:11:24+00:00,26.36897683,22,updated stim.csv,Version22.csv,Version 22,List 22,stockbroker,NA,649,4.851851852,2540,650,BOI,-,-,Please name all of the ways you could use this object. Keep in mind that one object can have many uses. Separate your responses with a comma.,NA,y,26186,NA,NA,5405,24220,NA,NA,NA,"commission, trade, call, email",1
67llmn7BD@########.edu,e1xpj095hg,Affordance Norms_Butler,1,30,2023-02-17T21:11:36+00:00,11.33000898,22,updated stim.csv,Version22.csv,Version 22,List 22,carport,NA,632,4.28,439,633,BOI,-,-,Please name all of the ways you could use this object. Keep in mind that one object can have many uses. Separate your responses with a comma.,NA,y,11147,NA,NA,1558,10860,NA,NA,NA,"park, hide underneath, shelter, store",1
67llmn7BD@########.edu,e1xpj095hg,Affordance Norms_Butler,1,31,2023-02-17T21:11:48+00:00,12.14777613,22,updated stim.csv,Version22.csv,Version 22,List 22,shield,NA,647,5.037037037,2338,648,BOI,-,-,Please name all of the ways you could use this object. Keep in mind that one object can have many uses. Separate your responses with a comma.,NA,y,11969,NA,NA,1180,9698,NA,NA,NA,"protect, wield, guard",1
67llmn7BD@########.edu,e1xpj095hg,Affordance Norms_Butler,1,32,2023-02-17T21:12:01+00:00,13.1269691,22,updated stim.csv,Version22.csv,Version 22,List 22,stool,NA,659,6.076923077,2547,660,BOI,-,-,Please name all of the ways you could use this object. Keep in mind that one object can have many uses. Separate your responses with a comma.,NA,y,12953,NA,NA,981,7380,NA,NA,NA,"sit on, spin around, move, ",1
67llmn7BD@########.edu,e1xpj095hg,Affordance Norms_Butler,1,33,2023-02-17T21:12:21+00:00,20.53667378,22,updated stim.csv,Version22.csv,Version 22,List 22,seawater,NA,633,4.961538462,2303,634,BOI,-,-,Please name all of the ways you could use this object. Keep in mind that one object can have many uses. Separate your responses with a comma.,NA,y,20360,NA,NA,1732,18306,NA,NA,NA,"drink, swim, fish",1
67llmn7BD@########.edu,e1xpj095hg,Affordance Norms_Butler,1,34,2023-02-17T21:12:33+00:00,12.00133109,22,updated stim.csv,Version22.csv,Version 22,List 22,pumpernickel,NA,646,5.130434783,2097,647,BOI,-,-,Please name all of the ways you could use this object. Keep in mind that one object can have many uses. Separate your responses with a comma.,NA,y,11804,NA,NA,1318,10877,NA,NA,NA,"bake, eat, toss out",1
67llmn7BD@########.edu,e1xpj095hg,Affordance Norms_Butler,1,35,2023-02-17T21:12:42+00:00,8.279108047,22,updated stim.csv,Version22.csv,Version 22,List 22,boomerang,NA,648,5.666666667,280,649,BOI,-,-,Please name all of the ways you could use this object. Keep in mind that one object can have many uses. Separate your responses with a comma.,NA,y,8096,NA,NA,1009,5930,NA,NA,NA,"throw, catch, drop,",1
67llmn7BD@########.edu,e1xpj095hg,Affordance Norms_Butler,1,36,2023-02-17T21:12:58+00:00,15.86012888,22,updated stim.csv,Version22.csv,Version 22,List 22,puddle,NA,655,5,2089,656,BOI,-,-,Please name all of the ways you could use this object. Keep in mind that one object can have many uses. Separate your responses with a comma.,NA,y,15683,NA,NA,1098,15361,NA,NA,NA,"splash in, jump in, jump over, walk around, enjoy",1
67llmn7BD@########.edu,e1xpj095hg,Affordance Norms_Butler,1,37,2023-02-17T21:13:14+00:00,16.82826805,22,updated stim.csv,Version22.csv,Version 22,List 22,tutor,NA,634,4.608695652,2807,635,BOI,-,-,Please name all of the ways you could use this object. Keep in mind that one object can have many uses. Separate your responses with a comma.,NA,y,16653,NA,NA,2568,16006,NA,NA,NA,"pay, talk to, question, learn from",1
67llmn7BD@########.edu,e1xpj095hg,Affordance Norms_Butler,1,38,2023-02-17T21:13:32+00:00,17.22328115,22,updated stim.csv,Version22.csv,Version 22,List 22,clam,NA,657,4.375,545,658,BOI,-,-,Please name all of the ways you could use this object. Keep in mind that one object can have many uses. Separate your responses with a comma.,NA,y,17043,NA,NA,1294,16686,NA,NA,NA,"eat, prepare, hunt for, catch, open, break",1
67llmn7BD@########.edu,e1xpj095hg,Affordance Norms_Butler,1,39,2023-02-17T21:13:52+00:00,19.96485782,22,updated stim.csv,Version22.csv,Version 22,List 22,clipper,NA,650,4.923076923,562,651,BOI,-,-,Please name all of the ways you could use this object. Keep in mind that one object can have many uses. Separate your responses with a comma.,NA,y,19792,NA,NA,-1,-1,NA,NA,NA,,1
67llmn7BD@########.edu,e1xpj095hg,Affordance Norms_Butler,1,40,2023-02-17T21:14:07+00:00,15.70114017,22,updated stim.csv,Version22.csv,Version 22,List 22,television,NA,652,5.6,2660,653,BOI,-,-,Please name all of the ways you could use this object. Keep in mind that one object can have many uses. Separate your responses with a comma.,NA,y,15523,NA,NA,1054,14941,NA,NA,NA,"watch, turn on, turn off, record, enjoy, avoid",1
